# Im(k), E-Ef
# k-point    1
   -1.2268   10.0000
   -1.0413   10.0000
   -1.4303   10.0000
   -1.4303   10.0000
   -2.1846   10.0000
   -2.2443   10.0000
   -2.4861   10.0000
   -2.6127   10.0000
   -2.7279   10.0000
   -2.8870   10.0000
   -2.8872   10.0000
   -1.2378    9.6000
   -1.0616    9.6000
   -1.4549    9.6000
   -1.4549    9.6000
   -2.1939    9.6000
   -2.2537    9.6000
   -2.4948    9.6000
   -2.6207    9.6000
   -2.7356    9.6000
   -2.8943    9.6000
   -2.8945    9.6000
   -0.0752    9.2000
   -1.2487    9.2000
   -1.0815    9.2000
   -1.4794    9.2000
   -1.4794    9.2000
   -2.2031    9.2000
   -2.2631    9.2000
   -2.5035    9.2000
   -2.6287    9.2000
   -2.7432    9.2000
   -2.9016    9.2000
   -2.9018    9.2000
   -0.2297    8.8000
   -1.2595    8.8000
   -1.1010    8.8000
   -1.5039    8.8000
   -1.5039    8.8000
   -2.2124    8.8000
   -2.2724    8.8000
   -2.5123    8.8000
   -2.6366    8.8000
   -2.7508    8.8000
   -2.9089    8.8000
   -2.9091    8.8000
   -0.3140    8.4000
   -1.2703    8.4000
   -1.1202    8.4000
   -1.5283    8.4000
   -1.5283    8.4000
   -2.2216    8.4000
   -2.2816    8.4000
   -2.5210    8.4000
   -2.6446    8.4000
   -2.7583    8.4000
   -2.9162    8.4000
   -2.9164    8.4000
   -0.3786    8.0000
   -1.2811    8.0000
   -1.1390    8.0000
   -1.5528    8.0000
   -1.5528    8.0000
   -2.2308    8.0000
   -2.2909    8.0000
   -2.5297    8.0000
   -2.6524    8.0000
   -2.7659    8.0000
   -2.9234    8.0000
   -2.9236    8.0000
   -0.4325    7.6000
   -1.2917    7.6000
   -1.1576    7.6000
   -1.5772    7.6000
   -1.5772    7.6000
   -2.2400    7.6000
   -2.3001    7.6000
   -2.5384    7.6000
   -2.6603    7.6000
   -2.7734    7.6000
   -2.9307    7.6000
   -2.9308    7.6000
   -0.4794    7.2000
   -1.3024    7.2000
   -1.1758    7.2000
   -1.6017    7.2000
   -1.6017    7.2000
   -2.2492    7.2000
   -2.3092    7.2000
   -2.5471    7.2000
   -2.6682    7.2000
   -2.7809    7.2000
   -2.9379    7.2000
   -2.9380    7.2000
   -0.5212    6.8000
   -1.3130    6.8000
   -1.1937    6.8000
   -1.6261    6.8000
   -1.6261    6.8000
   -2.2584    6.8000
   -2.3183    6.8000
   -2.5557    6.8000
   -2.6760    6.8000
   -2.7884    6.8000
   -2.9450    6.8000
   -2.9452    6.8000
   -0.5592    6.4000
   -1.3235    6.4000
   -1.2114    6.4000
   -1.6506    6.4000
   -1.6506    6.4000
   -2.2675    6.4000
   -2.3274    6.4000
   -2.5644    6.4000
   -2.6838    6.4000
   -2.7958    6.4000
   -2.9522    6.4000
   -2.9524    6.4000
   -0.5941    6.0000
   -1.3340    6.0000
   -1.2288    6.0000
   -1.6750    6.0000
   -1.6750    6.0000
   -2.2767    6.0000
   -2.3365    6.0000
   -2.5730    6.0000
   -2.6916    6.0000
   -2.8033    6.0000
   -2.9593    6.0000
   -2.9595    6.0000
   -0.6264    5.6000
   -0.0417    5.6000
   -0.0418    5.6000
   -1.3444    5.6000
   -1.2460    5.6000
   -1.6995    5.6000
   -1.6995    5.6000
   -2.2858    5.6000
   -2.3455    5.6000
   -2.5817    5.6000
   -2.6993    5.6000
   -2.8107    5.6000
   -2.9665    5.6000
   -2.9666    5.6000
   -0.2329    5.2000
   -0.6567    5.2000
   -0.2329    5.2000
   -1.3548    5.2000
   -1.2629    5.2000
   -1.7239    5.2000
   -1.7239    5.2000
   -2.2949    5.2000
   -2.3544    5.2000
   -2.5903    5.2000
   -2.7071    5.2000
   -2.8181    5.2000
   -2.9736    5.2000
   -2.9737    5.2000
   -0.1491    4.8000
   -0.6851    4.8000
   -0.3269    4.8000
   -0.3270    4.8000
   -1.3652    4.8000
   -1.2796    4.8000
   -1.7483    4.8000
   -1.7483    4.8000
   -2.3040    4.8000
   -2.5989    4.8000
   -2.3634    4.8000
   -2.7148    4.8000
   -2.8255    4.8000
   -2.9807    4.8000
   -2.9808    4.8000
   -0.2551    4.4000
   -0.7120    4.4000
   -0.3997    4.4000
   -0.3997    4.4000
   -1.3755    4.4000
   -1.2961    4.4000
   -1.7726    4.4000
   -1.7726    4.4000
   -2.3131    4.4000
   -2.6075    4.4000
   -2.3723    4.4000
   -2.7225    4.4000
   -2.8328    4.4000
   -2.9877    4.4000
   -2.9879    4.4000
   -0.3284    4.0000
   -0.7374    4.0000
   -0.4613    4.0000
   -0.4613    4.0000
   -1.3857    4.0000
   -1.3124    4.0000
   -1.7968    4.0000
   -1.7968    4.0000
   -2.3221    4.0000
   -2.6161    4.0000
   -2.3812    4.0000
   -2.7301    4.0000
   -2.8402    4.0000
   -2.9948    4.0000
   -2.9949    4.0000
   -0.3881    3.6000
   -0.7617    3.6000
   -0.5158    3.6000
   -0.5158    3.6000
   -1.3960    3.6000
   -1.3284    3.6000
   -1.8209    3.6000
   -1.8209    3.6000
   -2.3311    3.6000
   -2.6247    3.6000
   -2.3900    3.6000
   -2.7378    3.6000
   -2.8475    3.6000
   -0.4396    3.2000
   -0.7849    3.2000
   -0.5652    3.2000
   -0.5652    3.2000
   -1.4061    3.2000
   -1.3443    3.2000
   -1.8448    3.2000
   -1.8448    3.2000
   -2.3401    3.2000
   -2.6332    3.2000
   -2.3988    3.2000
   -2.7454    3.2000
   -2.8548    3.2000
   -0.4857    2.8000
   -0.8071    2.8000
   -0.6109    2.8000
   -0.6109    2.8000
   -1.4162    2.8000
   -1.3600    2.8000
   -1.8685    2.8000
   -1.8685    2.8000
   -2.3491    2.8000
   -2.6418    2.8000
   -2.4076    2.8000
   -2.7530    2.8000
   -2.8621    2.8000
   -0.5277    2.4000
   -0.8284    2.4000
   -0.6536    2.4000
   -0.6536    2.4000
   -1.4263    2.4000
   -1.3755    2.4000
   -1.8919    2.4000
   -1.8919    2.4000
   -2.3581    2.4000
   -2.6503    2.4000
   -2.4163    2.4000
   -2.7606    2.4000
   -2.8694    2.4000
   -0.5666    2.0000
   -0.8489    2.0000
   -0.6939    2.0000
   -0.6939    2.0000
   -1.4364    2.0000
   -1.3908    2.0000
   -1.9151    2.0000
   -1.9151    2.0000
   -2.3670    2.0000
   -2.6588    2.0000
   -2.4250    2.0000
   -2.7681    2.0000
   -2.8767    2.0000
   -0.6029    1.6000
   -0.8686    1.6000
   -0.7322    1.6000
   -0.7322    1.6000
   -1.4464    1.6000
   -1.4059    1.6000
   -1.9379    1.6000
   -1.9379    1.6000
   -2.3759    1.6000
   -2.6673    1.6000
   -2.4337    1.6000
   -2.7757    1.6000
   -2.8839    1.6000
   -0.6372    1.2000
   -0.8877    1.2000
   -0.7687    1.2000
   -0.7687    1.2000
   -1.4563    1.2000
   -1.4209    1.2000
   -1.9603    1.2000
   -1.9603    1.2000
   -2.3848    1.2000
   -2.6758    1.2000
   -2.4423    1.2000
   -2.7832    1.2000
   -2.8911    1.2000
   -0.9062    0.8000
   -0.6697    0.8000
   -0.8039    0.8000
   -0.8039    0.8000
   -1.4662    0.8000
   -1.4357    0.8000
   -1.9824    0.8000
   -1.9824    0.8000
   -2.3937    0.8000
   -2.6842    0.8000
   -2.4509    0.8000
   -2.7907    0.8000
   -2.8983    0.8000
   -0.7006    0.4000
   -0.9241    0.4000
   -0.8377    0.4000
   -0.8377    0.4000
   -1.4761    0.4000
   -1.4504    0.4000
   -2.0039    0.4000
   -2.0039    0.4000
   -2.4025    0.4000
   -2.6927    0.4000
   -2.4595    0.4000
   -2.7982    0.4000
   -2.9055    0.4000
   -0.9414    0.0000
   -0.7303    0.0000
   -0.8705    0.0000
   -0.8705    0.0000
   -1.4860    0.0000
   -1.4649    0.0000
   -2.0250    0.0000
   -2.0250    0.0000
   -2.4113    0.0000
   -2.7011    0.0000
   -2.4681    0.0000
   -2.8057    0.0000
   -2.9127    0.0000
   -0.9583   -0.4000
   -0.7587   -0.4000
   -0.9023   -0.4000
   -0.9023   -0.4000
   -1.4958   -0.4000
   -1.4793   -0.4000
   -2.0456   -0.4000
   -2.0456   -0.4000
   -2.4201   -0.4000
   -2.7095   -0.4000
   -2.4766   -0.4000
   -2.8131   -0.4000
   -2.9198   -0.4000
   -0.9747   -0.8000
   -0.7862   -0.8000
   -0.9333   -0.8000
   -0.9333   -0.8000
   -1.5055   -0.8000
   -1.4935   -0.8000
   -2.0657   -0.8000
   -2.0657   -0.8000
   -2.4289   -0.8000
   -2.7179   -0.8000
   -2.4851   -0.8000
   -2.8205   -0.8000
   -2.9269   -0.8000
   -0.9907   -1.2000
   -0.8127   -1.2000
   -0.9636   -1.2000
   -0.9636   -1.2000
   -1.5152   -1.2000
   -1.5076   -1.2000
   -2.0853   -1.2000
   -2.0853   -1.2000
   -2.4376   -1.2000
   -2.7263   -1.2000
   -2.4935   -1.2000
   -2.8279   -1.2000
   -2.9341   -1.2000
   -1.0062   -1.6000
   -0.8383   -1.6000
   -0.9931   -1.6000
   -0.9931   -1.6000
   -1.5249   -1.6000
   -1.5216   -1.6000
   -2.1043   -1.6000
   -2.1043   -1.6000
   -2.4464   -1.6000
   -2.7347   -1.6000
   -2.5020   -1.6000
   -2.8353   -1.6000
   -2.9412   -1.6000
   -0.0251   -2.0000
   -0.8632   -2.0000
   -1.0214   -2.0000
   -1.0221   -2.0000
   -1.0221   -2.0000
   -1.5346   -2.0000
   -1.5354   -2.0000
   -2.1229   -2.0000
   -2.1229   -2.0000
   -2.4551   -2.0000
   -2.7430   -2.0000
   -2.5104   -2.0000
   -2.8427   -2.0000
   -2.9482   -2.0000
   -0.0371   -2.4000
   -1.0362   -2.4000
   -0.8873   -2.4000
   -1.0506   -2.4000
   -1.0506   -2.4000
   -1.5442   -2.4000
   -1.5491   -2.4000
   -2.1410   -2.4000
   -2.1410   -2.4000
   -2.4637   -2.4000
   -2.7514   -2.4000
   -2.5187   -2.4000
   -2.8500   -2.4000
   -2.9553   -2.4000
   -0.0333   -2.8000
   -1.0507   -2.8000
   -0.9108   -2.8000
   -1.0786   -2.8000
   -1.5538   -2.8000
   -1.0786   -2.8000
   -1.5627   -2.8000
   -2.1586   -2.8000
   -2.1586   -2.8000
   -2.4724   -2.8000
   -2.7597   -2.8000
   -2.5271   -2.8000
   -2.8573   -2.8000
   -2.9623   -2.8000
   -1.0648   -3.2000
   -0.9337   -3.2000
   -1.1063   -3.2000
   -1.1063   -3.2000
   -1.5633   -3.2000
   -1.5762   -3.2000
   -2.4810   -3.2000
   -2.1758   -3.2000
   -2.1758   -3.2000
   -2.7680   -3.2000
   -2.5354   -3.2000
   -2.8647   -3.2000
   -2.9694   -3.2000
   -1.0787   -3.6000
   -0.9561   -3.6000
   -1.1336   -3.6000
   -1.5728   -3.6000
   -1.1336   -3.6000
   -1.5895   -3.6000
   -2.4896   -3.6000
   -2.1926   -3.6000
   -2.1926   -3.6000
   -2.7763   -3.6000
   -2.5437   -3.6000
   -2.8719   -3.6000
   -2.9764   -3.6000
   -1.0923   -4.0000
   -0.9779   -4.0000
   -1.1606   -4.0000
   -1.5823   -4.0000
   -1.1606   -4.0000
   -1.6028   -4.0000
   -2.4982   -4.0000
   -2.2090   -4.0000
   -2.2090   -4.0000
   -2.7846   -4.0000
   -2.5519   -4.0000
   -2.8792   -4.0000
   -2.9834   -4.0000
   -1.1056   -4.4000
   -0.9993   -4.4000
   -1.1874   -4.4000
   -1.5917   -4.4000
   -1.1874   -4.4000
   -1.6159   -4.4000
   -2.5067   -4.4000
   -2.2263   -4.4000
   -2.2263   -4.4000
   -2.7929   -4.4000
   -2.5602   -4.4000
   -2.8865   -4.4000
   -2.9904   -4.4000
   -1.1186   -4.8000
   -1.0202   -4.8000
   -1.2141   -4.8000
   -1.6011   -4.8000
   -1.2141   -4.8000
   -1.6289   -4.8000
   -2.1517   -4.8000
   -2.1516   -4.8000
   -2.5153   -4.8000
   -2.2934   -4.8000
   -2.2935   -4.8000
   -2.2389   -4.8000
   -2.2389   -4.8000
   -2.8011   -4.8000
   -2.5684   -4.8000
   -2.8937   -4.8000
   -2.9973   -4.8000
   -1.1314   -5.2000
   -1.0407   -5.2000
   -1.2406   -5.2000
   -1.6105   -5.2000
   -1.2406   -5.2000
   -1.6419   -5.2000
   -2.1115   -5.2000
   -2.1114   -5.2000
   -2.2546   -5.2000
   -2.5238   -5.2000
   -2.2545   -5.2000
   -2.3347   -5.2000
   -2.3348   -5.2000
   -2.8094   -5.2000
   -2.5766   -5.2000
   -2.9009   -5.2000
   -1.1440   -5.6000
   -1.0608   -5.6000
   -1.2670   -5.6000
   -1.6198   -5.6000
   -1.2670   -5.6000
   -1.6547   -5.6000
   -2.0826   -5.6000
   -2.0825   -5.6000
   -2.2694   -5.6000
   -2.5322   -5.6000
   -2.2694   -5.6000
   -2.8176   -5.6000
   -2.3650   -5.6000
   -2.3651   -5.6000
   -2.5847   -5.6000
   -2.9081   -5.6000
   -1.1564   -6.0000
   -1.0805   -6.0000
   -1.2935   -6.0000
   -1.6291   -6.0000
   -1.2935   -6.0000
   -1.6674   -6.0000
   -2.0587   -6.0000
   -2.0586   -6.0000
   -2.2839   -6.0000
   -2.5407   -6.0000
   -2.2839   -6.0000
   -2.8258   -6.0000
   -2.3903   -6.0000
   -2.3903   -6.0000
   -2.5929   -6.0000
   -2.9153   -6.0000
   -1.1685   -6.4000
   -1.0998   -6.4000
   -1.3200   -6.4000
   -1.6384   -6.4000
   -1.3200   -6.4000
   -1.6800   -6.4000
   -2.0377   -6.4000
   -2.0376   -6.4000
   -2.2980   -6.4000
   -2.5491   -6.4000
   -2.2980   -6.4000
   -2.8340   -6.4000
   -2.4124   -6.4000
   -2.4125   -6.4000
   -2.6010   -6.4000
   -2.9225   -6.4000
   -1.1805   -6.8000
   -1.1188   -6.8000
   -1.3467   -6.8000
   -1.6476   -6.8000
   -1.3467   -6.8000
   -1.6925   -6.8000
   -2.0185   -6.8000
   -2.0184   -6.8000
   -2.3119   -6.8000
   -2.5575   -6.8000
   -2.3119   -6.8000
   -2.4325   -6.8000
   -2.4325   -6.8000
   -2.8422   -6.8000
   -2.6090   -6.8000
   -2.9296   -6.8000
   -1.1922   -7.2000
   -1.1375   -7.2000
   -1.3737   -7.2000
   -1.6569   -7.2000
   -1.3737   -7.2000
   -1.7049   -7.2000
   -2.0005   -7.2000
   -2.0004   -7.2000
   -2.3254   -7.2000
   -2.5659   -7.2000
   -2.3254   -7.2000
   -2.4510   -7.2000
   -2.4510   -7.2000
   -2.8504   -7.2000
   -2.6171   -7.2000
   -2.9367   -7.2000
   -1.2038   -7.6000
   -1.1559   -7.6000
   -1.4010   -7.6000
   -1.6660   -7.6000
   -1.4010   -7.6000
   -1.7173   -7.6000
   -1.9832   -7.6000
   -1.9832   -7.6000
   -2.3387   -7.6000
   -2.5743   -7.6000
   -2.3387   -7.6000
   -2.8585   -7.6000
   -2.4682   -7.6000
   -2.4683   -7.6000
   -2.6251   -7.6000
   -2.9439   -7.6000
   -1.2152   -8.0000
   -1.1740   -8.0000
   -1.4288   -8.0000
   -1.6752   -8.0000
   -1.4288   -8.0000
   -1.7295   -8.0000
   -1.9662   -8.0000
   -1.9662   -8.0000
   -2.3517   -8.0000
   -2.5826   -8.0000
   -2.3517   -8.0000
   -2.8667   -8.0000
   -2.4845   -8.0000
   -2.4845   -8.0000
   -2.6331   -8.0000
   -2.9509   -8.0000
   -1.2265   -8.4000
   -1.1918   -8.4000
   -1.6843   -8.4000
   -1.4574   -8.4000
   -1.4574   -8.4000
   -1.7417   -8.4000
   -1.9493   -8.4000
   -1.9492   -8.4000
   -2.3644   -8.4000
   -2.5909   -8.4000
   -2.3644   -8.4000
   -2.8748   -8.4000
   -2.5000   -8.4000
   -2.5000   -8.4000
   -2.6411   -8.4000
   -2.9580   -8.4000
   -1.2375   -8.8000
   -1.2093   -8.8000
   -1.6934   -8.8000
   -1.4869   -8.8000
   -1.4869   -8.8000
   -1.7537   -8.8000
   -1.9319   -8.8000
   -1.9318   -8.8000
   -2.3770   -8.8000
   -2.5992   -8.8000
   -2.3770   -8.8000
   -2.8829   -8.8000
   -2.5147   -8.8000
   -2.5148   -8.8000
   -2.6490   -8.8000
   -2.9651   -8.8000
   -1.2485   -9.2000
   -1.2266   -9.2000
   -1.7025   -9.2000
   -1.5178   -9.2000
   -1.5178   -9.2000
   -1.7657   -9.2000
   -1.9135   -9.2000
   -1.9135   -9.2000
   -2.3893   -9.2000
   -2.6074   -9.2000
   -2.3893   -9.2000
   -2.8910   -9.2000
   -2.5289   -9.2000
   -2.5289   -9.2000
   -2.6570   -9.2000
   -2.9721   -9.2000
   -1.2592   -9.6000
   -1.2437   -9.6000
   -1.7115   -9.6000
   -1.5508   -9.6000
   -1.5508   -9.6000
   -1.7776   -9.6000
   -1.8935   -9.6000
   -1.8935   -9.6000
   -2.4014   -9.6000
   -2.6157   -9.6000
   -2.4014   -9.6000
   -2.8991   -9.6000
   -2.5426   -9.6000
   -2.5426   -9.6000
   -2.6649   -9.6000
   -2.9792   -9.6000
   -1.2699  -10.0000
   -1.2605  -10.0000
   -1.7205  -10.0000
   -1.5871  -10.0000
   -1.5871  -10.0000
   -1.7895  -10.0000
   -1.8705  -10.0000
   -1.8705  -10.0000
   -2.4133  -10.0000
   -2.6239  -10.0000
   -2.4133  -10.0000
   -2.9072  -10.0000
   -2.5558  -10.0000
   -2.5558  -10.0000
   -2.6727  -10.0000
   -2.9862  -10.0000
   -1.2804  -10.4000
   -1.2771  -10.4000
   -1.7295  -10.4000
   -1.6293  -10.4000
   -1.6293  -10.4000
   -1.8012  -10.4000
   -1.8419  -10.4000
   -1.8418  -10.4000
   -2.4251  -10.4000
   -2.6321  -10.4000
   -2.4250  -10.4000
   -2.9153  -10.4000
   -2.5686  -10.4000
   -2.5686  -10.4000
   -2.6806  -10.4000
   -2.9932  -10.4000
   -1.2908  -10.8000
   -1.2935  -10.8000
   -1.7385  -10.8000
   -1.6883  -10.8000
   -1.6883  -10.8000
   -1.7966  -10.8000
   -1.7966  -10.8000
   -1.8129  -10.8000
   -2.4366  -10.8000
   -2.6403  -10.8000
   -2.4366  -10.8000
   -2.9233  -10.8000
   -2.5810  -10.8000
   -2.5811  -10.8000
   -2.6884  -10.8000
   -1.3010  -11.2000
   -1.3096  -11.2000
   -1.7474  -11.2000
   -1.8245  -11.2000
   -2.6484  -11.2000
   -2.4480  -11.2000
   -2.4480  -11.2000
   -2.9314  -11.2000
   -2.6962  -11.2000
   -2.5932  -11.2000
   -2.5932  -11.2000
   -1.3111  -11.6000
   -1.3256  -11.6000
   -1.7563  -11.6000
   -1.8360  -11.6000
   -2.6565  -11.6000
   -2.4592  -11.6000
   -2.4592  -11.6000
   -2.9394  -11.6000
   -2.7040  -11.6000
   -2.6050  -11.6000
   -2.6050  -11.6000
   -0.1853  -12.0000
   -1.3211  -12.0000
   -1.3414  -12.0000
   -1.7652  -12.0000
   -1.8475  -12.0000
   -2.6647  -12.0000
   -2.4703  -12.0000
   -2.4703  -12.0000
   -2.9475  -12.0000
   -2.7118  -12.0000
   -2.6165  -12.0000
   -2.6166  -12.0000
   -0.2759  -12.4000
   -1.3310  -12.4000
   -1.3570  -12.4000
   -1.7741  -12.4000
   -1.8588  -12.4000
   -2.6727  -12.4000
   -2.4813  -12.4000
   -2.4812  -12.4000
   -2.9555  -12.4000
   -2.7195  -12.4000
   -2.6278  -12.4000
   -2.6279  -12.4000
   -0.3431  -12.8000
   -1.3408  -12.8000
   -1.3724  -12.8000
   -1.7829  -12.8000
   -1.8701  -12.8000
   -2.6808  -12.8000
   -2.4920  -12.8000
   -2.4920  -12.8000
   -2.9635  -12.8000
   -2.7273  -12.8000
   -2.6389  -12.8000
   -2.6389  -12.8000
   -0.3989  -13.2000
   -1.3505  -13.2000
   -1.3877  -13.2000
   -1.7917  -13.2000
   -1.8814  -13.2000
   -2.6888  -13.2000
   -2.5027  -13.2000
   -2.5027  -13.2000
   -2.9715  -13.2000
   -2.7349  -13.2000
   -2.6498  -13.2000
   -2.6498  -13.2000
   -0.4476  -13.6000
   -1.3601  -13.6000
   -1.4027  -13.6000
   -1.8005  -13.6000
   -1.8925  -13.6000
   -2.6969  -13.6000
   -2.5133  -13.6000
   -2.5132  -13.6000
   -2.9795  -13.6000
   -2.7426  -13.6000
   -2.6604  -13.6000
   -2.6605  -13.6000
